File: Praktikum_4/V44/V44/Messdaten/Diffus.UXD
; C:\DIFFDAT1\Praktikum\V44_Ollesch_Annuss\Diffus.raw(Diffrac Plus V1.01 file) converted by XCH V1.0
_FILEVERSION=2
_SITE='Deutschland'
_USER='Administrator'
_GONIOMETER_CODE=4885
; D8 Theta/Theta; Special
_SAMPLE_CHANGER_CODE=0
_ATTACHMENTS_CODE=0
_GONIOMETER_RADIUS=350
_FIXED_DIVSLIT=0.600000
_FIXED_SAMPLESLIT=0.000000
_FIXED_DETSLIT=11.66
_MONOCHROMATOR=0
; None
_THIN_FILM='N'
_BETA_FILTER='Y'
_FIXED_ANTISLIT=8.340000
_ANALYZER_CODE=0
; None
_DATEMEASURED='29-Jan-2024 11:58:36'
_WL_UNIT='A'
_WL1=1.540600
_WL2=1.544390
_WL3=1.392220
_WLRATIO=0.500000
_ANODE='Cu'
; (Data for Range number 1)
_DRIVE='THETA'
_STEPTIME=5.000660
_STEPSIZE=0.005000
_STEPMODE='C'
_START=0.000000
_THETA=0.000000
_2THETA=0.100000
_KHI=0.000000
_PHI=92.46
_X=1.546000
_Y=-0.300000
_Z=0.226000
_DIVERGENCE=0.000000
_ANTISCATTER=0.000000
_DETECTOR=5
_DETECTORSLIT='unkn'
_AUX1=0.000000
_AUX2=0.000000
_AUX3=0.000000
_TIMESTARTED=2.000000
_TEMP_RATE=-1.000000
_TEMP_DELAY=-1.000000
_KV=40
_MA=35
_RANGE_WL=1.540600
_3DPLANE=0
_GONIOMETER=0.097500
_PSDCHANNEL0=0
_2THETACOUNTS
   0.0000    634609
   0.0050    524330
   0.0100    435367
   0.0150    359277
   0.0200    297775
   0.0250    261800
   0.0300    237637
   0.0350    231944
   0.0400    216604
   0.0450    183397
   0.0500    153197
   0.0550    122589
   0.0600    105313
   0.0650    103519
   0.0700    107285
   0.0750    111152
   0.0800    115230
   0.0850    114848
   0.0900    109180
   0.0950    106041
   0.1000    106004
   0.1050     98515
   0.1100     87311
   0.1150     79695
   0.1200     74100
   0.1250     68234
   0.1300     61166
   0.1350     52024
   0.1400     44107
   0.1450     38304
   0.1500     35535
   0.1550     32785
   0.1600     30395
   0.1650     28407
   0.1700     26447
   0.1750     24099
   0.1800     22290
   0.1850     20357
   0.1900     18495
   0.1950     16562
   0.2000     14822
   0.2050     12714
   0.2100     11030
   0.2150      9469
   0.2200      7970
   0.2250      6684
   0.2300      5753
   0.2350      5020
   0.2400      4233
   0.2450      3586
   0.2500      3137
   0.2550      2716
   0.2600      2338
   0.2650      2269
   0.2700      2157
   0.2750      1998
   0.2800      1958
   0.2850      1792
   0.2900      1766
   0.2950      1676
   0.3000      1583
   0.3050      1613
   0.3100      1517
   0.3150      1450
   0.3200      1430
   0.3250      1406
   0.3300      1444
   0.3350      1385
   0.3400      1375
   0.3450      1333
   0.3500      1390
   0.3550      1307
   0.3600      1270
   0.3650      1264
   0.3700      1328
   0.3750      1228
   0.3800      1259
   0.3850      1242
   0.3900      1284
   0.3950      1333
   0.4000      1245
   0.4050      1356
   0.4100      1282
   0.4150      1320
   0.4200      1303
   0.4250      1286
   0.4300      1258
   0.4350      1254
   0.4400      1247
   0.4450      1264
   0.4500      1236
   0.4550      1196
   0.4600      1227
   0.4650      1185
   0.4700      1137
   0.4750      1173
   0.4800      1114
   0.4850      1208
   0.4900      1127
   0.4950      1092
   0.5000      1020
   0.5050      1086
   0.5100      1085
   0.5150       970
   0.5200      1090
   0.5250       973
   0.5300       932
   0.5350       962
   0.5400       909
   0.5450       884
   0.5500       932
   0.5550       982
   0.5600       931
   0.5650       944
   0.5700       984
   0.5750      1064
   0.5800      1158
   0.5850      1225
   0.5900      1320
   0.5950      1312
   0.6000      1321
   0.6050      1295
   0.6100      1148
   0.6150      1022
   0.6200       915
   0.6250       683
   0.6300       421
   0.6350       231
   0.6400       127
   0.6450        85
   0.6500        62
   0.6550        63
   0.6600        52
   0.6650        46
   0.6700        62
   0.6750        46
   0.6800        63
   0.6850        65
   0.6900        57
   0.6950        38
   0.7000        40
   0.7050        50
   0.7100        49
   0.7150        43
   0.7200        41
   0.7250        46
   0.7300        33
   0.7350        35
   0.7400        47
   0.7450        33
   0.7500        38
   0.7550        31
   0.7600        42
   0.7650        32
   0.7700        33
   0.7750        31
   0.7800        28
   0.7850        25
   0.7900        27
   0.7950        20
   0.8000        27
   0.8050        30
   0.8100        38
   0.8150        39
   0.8200        36
   0.8250        22
   0.8300        24
   0.8350        20
   0.8400        27
   0.8450        30
   0.8500        23
   0.8550        28
   0.8600        19
   0.8650        23
   0.8700        30
   0.8750        15
   0.8800        23
   0.8850        13
   0.8900        22
   0.8950        19
   0.9000        16
   0.9050        11
   0.9100        21
   0.9150        12
   0.9200        17
   0.9250        18
   0.9300        24
   0.9350        23
   0.9400        15
   0.9450        19
   0.9500        20
   0.9550        14
   0.9600        15
   0.9650        12
   0.9700        10
   0.9750        14
   0.9800        14
   0.9850        12
   0.9900         9
   0.9950         5
   1.0000        11
   1.0050         9
   1.0100        11
   1.0150        11
   1.0200        14
   1.0250        10
   1.0300        20
   1.0350        18
   1.0400        12
   1.0450        14
   1.0500        18
   1.0550         5
   1.0600         7
   1.0650         8
   1.0700         9
   1.0750        10
   1.0800        10
   1.0850         9
   1.0900        12
   1.0950         8
   1.1000         3
   1.1050         6
   1.1100        11
   1.1150         6
   1.1200        20
   1.1250        13
   1.1300         9
   1.1350         6
   1.1400         7
   1.1450         5
   1.1500        11
   1.1550         6
   1.1600         9
   1.1650         8
   1.1700         6
   1.1750         6
   1.1800         4
   1.1850         5
   1.1900        10
   1.1950         5
   1.2000        12
   1.2050         7
   1.2100         7
   1.2150         8
   1.2200         3
   1.2250         9
   1.2300         4
   1.2350         7
   1.2400         4
   1.2450         8
   1.2500         6
   1.2550         7
   1.2600         5
   1.2650         4
   1.2700         5
   1.2750         4
   1.2800         5
   1.2850         5
   1.2900         3
   1.2950         4
   1.3000         2
   1.3050         7
   1.3100         3
   1.3150         3
   1.3200         5
   1.3250         4
   1.3300         3
   1.3350         6
   1.3400         6
   1.3450         5
   1.3500         1
   1.3550         6
   1.3600         4
   1.3650         3
   1.3700         4
   1.3750         6
   1.3800         2
   1.3850         1
   1.3900         4
   1.3950         4
   1.4000         0
   1.4050         4
   1.4100         4
   1.4150         6
   1.4200         4
   1.4250         2
   1.4300         1
   1.4350         2
   1.4400         4
   1.4450         3
   1.4500         6
   1.4550         3
   1.4600         1
   1.4650         4
   1.4700         5
   1.4750         1
   1.4800         6
   1.4850         4
   1.4900         4
   1.4950         5
   1.5000         1
   1.5050         0
   1.5100         1
   1.5150         2
   1.5200         1
   1.5250         3
   1.5300         5
   1.5350         0
   1.5400         3
   1.5450         1
   1.5500         2
   1.5550         1
   1.5600         1
   1.5650         2
   1.5700         3
   1.5750         2
   1.5800         1
   1.5850         1
   1.5900         1
   1.5950         1
   1.6000         1
   1.6050         3
   1.6100         5
   1.6150         0
   1.6200         2
   1.6250         4
   1.6300         2
   1.6350         2
   1.6400         5
   1.6450         3
   1.6500         2
   1.6550         2
   1.6600         1
   1.6650         2
   1.6700         2
   1.6750         0
   1.6800         0
   1.6850         2
   1.6900         2
   1.6950         0
   1.7000         1
   1.7050         3
   1.7100         2
   1.7150         0
   1.7200         4
   1.7250         0
   1.7300         1
   1.7350         3
   1.7400         1
   1.7450         1
   1.7500         4
   1.7550         2
   1.7600         1
   1.7650         1
   1.7700         0
   1.7750         1
   1.7800         3
   1.7850         2
   1.7900         0
   1.7950         1
   1.8000         1
   1.8050         2
   1.8100         0
   1.8150         1
   1.8200         2
   1.8250         2
   1.8300         4
   1.8350         0
   1.8400         2
   1.8450         2
   1.8500         2
   1.8550         4
   1.8600         1
   1.8650         0
   1.8700         1
   1.8750         1
   1.8800         2
   1.8850         1
   1.8900         0
   1.8950         0
   1.9000         2
   1.9050         1
   1.9100         0
   1.9150         2
   1.9200         2
   1.9250         0
   1.9300         2
   1.9350         2
   1.9400         3
   1.9450         0
   1.9500         2
   1.9550         4
   1.9600         0
   1.9650         1
   1.9700         3
   1.9750         4
   1.9800         1
   1.9850         2
   1.9900         1
   1.9950         0
   2.0000         1
   2.0050         0
   2.0100         2
   2.0150         1
   2.0200         4
   2.0250         1
   2.0300         2
   2.0350         1
   2.0400         2
   2.0450         2
   2.0500         0
   2.0550         2
   2.0600         0
   2.0650         0
   2.0700         0
   2.0750         1
   2.0800         0
   2.0850         1
   2.0900         0
   2.0950         1
   2.1000         1
   2.1050         0
   2.1100         3
   2.1150         0
   2.1200         1
   2.1250         2
   2.1300         3
   2.1350         0
   2.1400         2
   2.1450         2
   2.1500         2
   2.1550         2
   2.1600         1
   2.1650         1
   2.1700         1
   2.1750         2
   2.1800         1
   2.1850         2
   2.1900         0
   2.1950         0
   2.2000         1
   2.2050         1
   2.2100         4
   2.2150         1
   2.2200         0
   2.2250         1
   2.2300         3
   2.2350         2
   2.2400         1
   2.2450         0
   2.2500         0
   2.2550         0
   2.2600         1
   2.2650         0
   2.2700         0
   2.2750         3
   2.2800         2
   2.2850         1
   2.2900         1
   2.2950         2
   2.3000         0
   2.3050         0
   2.3100         3
   2.3150         2
   2.3200         4
   2.3250         0
   2.3300         1
   2.3350         1
   2.3400         0
   2.3450         2
   2.3500         2
   2.3550         2
   2.3600         0
   2.3650         3
   2.3700         0
   2.3750         2
   2.3800         2
   2.3850         0
   2.3900         1
   2.3950         0
   2.4000         0
   2.4050         2
   2.4100         0
   2.4150         1
   2.4200         0
   2.4250         1
   2.4300         0
   2.4350         1
   2.4400         2
   2.4450         0
   2.4500         1
   2.4550         0
   2.4600         0
   2.4650         0
   2.4700         0
   2.4750         2
   2.4800         2
   2.4850         2
   2.4900         0
   2.4950         0
   2.5000         3