File: Praktikum_4/V44/V44/Messdaten/Omega2Theta.UXD
; C:\DIFFDAT1\Praktikum\V44_Ollesch_Annuss\Omega2Theta.raw(Diffrac Plus V1.01 file) converted by XCH V1.0
_FILEVERSION=2
_SITE='Deutschland'
_USER='Administrator'
_GONIOMETER_CODE=4885
; D8 Theta/Theta; Special
_SAMPLE_CHANGER_CODE=0
_ATTACHMENTS_CODE=0
_GONIOMETER_RADIUS=350
_FIXED_DIVSLIT=0.600000
_FIXED_SAMPLESLIT=0.000000
_FIXED_DETSLIT=11.66
_MONOCHROMATOR=0
; None
_THIN_FILM='N'
_BETA_FILTER='Y'
_FIXED_ANTISLIT=8.340000
_ANALYZER_CODE=0
; None
_DATEMEASURED='29-Jan-2024 11:15:14'
_WL_UNIT='A'
_WL1=1.540600
_WL2=1.544390
_WL3=1.392220
_WLRATIO=0.500000
_ANODE='Cu'
; (Data for Range number 1)
_DRIVE='THETA'
_STEPTIME=5.000660
_STEPSIZE=0.005000
_STEPMODE='C'
_START=0.000000
_THETA=0.000000
_2THETA=0.000000
_KHI=0.000000
_PHI=92.46
_X=1.546000
_Y=-0.300000
_Z=0.226000
_DIVERGENCE=0.000000
_ANTISCATTER=0.000000
_DETECTOR=5
_DETECTORSLIT='unkn'
_AUX1=0.000000
_AUX2=0.000000
_AUX3=0.000000
_TIMESTARTED=2.000000
_TEMP_RATE=-1.000000
_TEMP_DELAY=-1.000000
_KV=40
_MA=35
_RANGE_WL=1.540600
_3DPLANE=0
_GONIOMETER=-0.002500
_PSDCHANNEL0=0
_2THETACOUNTS
   0.0000   2498310
   0.0050   3526500
   0.0100   4515170
   0.0150   4956160
   0.0200   4574290
   0.0250   3589430
   0.0300   2553920
   0.0350   1840530
   0.0400   1456670
   0.0450   1275450
   0.0500   1153110
   0.0550   1074480
   0.0600   1038490
   0.0650   1017300
   0.0700   1014830
   0.0750   1040710
   0.0800   1076820
   0.0850   1130920
   0.0900   1170800
   0.0950   1200890
   0.1000   1225690
   0.1050   1245560
   0.1100   1285140
   0.1150   1336930
   0.1200   1389680
   0.1250   1453670
   0.1300   1506290
   0.1350   1566330
   0.1400   1626770
   0.1450   1682110
   0.1500   1731560
   0.1550   1756620
   0.1600   1780670
   0.1650   1810360
   0.1700   1815510
   0.1750   1821650
   0.1800   1832780
   0.1850   1872730
   0.1900   1930880
   0.1950   1980980
   0.2000   2009560
   0.2050   2014710
   0.2100   2016880
   0.2150   1957440
   0.2200   1825980
   0.2250   1642040
   0.2300   1408630
   0.2350   1145660
   0.2400    882477
   0.2450    644783
   0.2500    463382
   0.2550    333922
   0.2600    264125
   0.2650    235269
   0.2700    222000
   0.2750    204948
   0.2800    177065
   0.2850    142758
   0.2900    111716
   0.2950     87904
   0.3000     77391
   0.3050     76486
   0.3100     80702
   0.3150     82919
   0.3200     80604
   0.3250     70766
   0.3300     58252
   0.3350     46048
   0.3400     37228
   0.3450     33579
   0.3500     34513
   0.3550     37729
   0.3600     40984
   0.3650     41129
   0.3700     38240
   0.3750     32424
   0.3800     26593
   0.3850     21185
   0.3900     18397
   0.3950     17591
   0.4000     19406
   0.4050     21434
   0.4100     23227
   0.4150     23185
   0.4200     21044
   0.4250     17933
   0.4300     14588
   0.4350     11825
   0.4400     10665
   0.4450     10698
   0.4500     11953
   0.4550     13503
   0.4600     14205
   0.4650     14222
   0.4700     12997
   0.4750     11373
   0.4800      9215
   0.4850      7849
   0.4900      6853
   0.4950      6875
   0.5000      7521
   0.5050      8505
   0.5100      9160
   0.5150      9431
   0.5200      8671
   0.5250      7754
   0.5300      6317
   0.5350      5361
   0.5400      4780
   0.5450      4666
   0.5500      5019
   0.5550      5692
   0.5600      6240
   0.5650      6235
   0.5700      6057
   0.5750      5475
   0.5800      4643
   0.5850      3900
   0.5900      3340
   0.5950      3247
   0.6000      3508
   0.6050      3918
   0.6100      4270
   0.6150      4495
   0.6200      4582
   0.6250      4153
   0.6300      3720
   0.6350      3284
   0.6400      2946
   0.6450      2885
   0.6500      2821
   0.6550      3095
   0.6600      3234
   0.6650      3439
   0.6700      3310
   0.6750      2962
   0.6800      2431
   0.6850      1818
   0.6900      1417
   0.6950      1134
   0.7000      1118
   0.7050      1275
   0.7100      1375
   0.7150      1605
   0.7200      1744
   0.7250      1680
   0.7300      1538
   0.7350      1286
   0.7400      1067
   0.7450       889
   0.7500       770
   0.7550       875
   0.7600       872
   0.7650      1078
   0.7700      1223
   0.7750      1239
   0.7800      1106
   0.7850       963
   0.7900       808
   0.7950       684
   0.8000       590
   0.8050       551
   0.8100       578
   0.8150       660
   0.8200       741
   0.8250       838
   0.8300       802
   0.8350       678
   0.8400       676
   0.8450       522
   0.8500       490
   0.8550       402
   0.8600       407
   0.8650       493
   0.8700       548
   0.8750       599
   0.8800       619
   0.8850       581
   0.8900       509
   0.8950       425
   0.9000       379
   0.9050       362
   0.9100       280
   0.9150       319
   0.9200       361
   0.9250       405
   0.9300       434
   0.9350       438
   0.9400       383
   0.9450       358
   0.9500       299
   0.9550       250
   0.9600       219
   0.9650       243
   0.9700       244
   0.9750       268
   0.9800       300
   0.9850       327
   0.9900       296
   0.9950       267
   1.0000       223
   1.0050       203
   1.0100       189
   1.0150       152
   1.0200       156
   1.0250       188
   1.0300       213
   1.0350       214
   1.0400       226
   1.0450       231
   1.0500       201
   1.0550       188
   1.0600       165
   1.0650       131
   1.0700       125
   1.0750       147
   1.0800       132
   1.0850       149
   1.0900       179
   1.0950       164
   1.1000       170
   1.1050       128
   1.1100       134
   1.1150       102
   1.1200        98
   1.1250        80
   1.1300       106
   1.1350       103
   1.1400       131
   1.1450       123
   1.1500       130
   1.1550       117
   1.1600        95
   1.1650        78
   1.1700        77
   1.1750        60
   1.1800        79
   1.1850        82
   1.1900        95
   1.1950        96
   1.2000        94
   1.2050        94
   1.2100        88
   1.2150        70
   1.2200        61
   1.2250        35
   1.2300        49
   1.2350        60
   1.2400        59
   1.2450        78
   1.2500        75
   1.2550        76
   1.2600        67
   1.2650        74
   1.2700        58
   1.2750        48
   1.2800        49
   1.2850        40
   1.2900        38
   1.2950        42
   1.3000        50
   1.3050        44
   1.3100        54
   1.3150        48
   1.3200        37
   1.3250        40
   1.3300        41
   1.3350        32
   1.3400        27
   1.3450        39
   1.3500        54
   1.3550        43
   1.3600        46
   1.3650        42
   1.3700        36
   1.3750        19
   1.3800        26
   1.3850        31
   1.3900        26
   1.3950        24
   1.4000        24
   1.4050        30
   1.4100        37
   1.4150        26
   1.4200        21
   1.4250        26
   1.4300        24
   1.4350        26
   1.4400        18
   1.4450        25
   1.4500        14
   1.4550        29
   1.4600        26
   1.4650        23
   1.4700        30
   1.4750        28
   1.4800        15
   1.4850        14
   1.4900        16
   1.4950        17
   1.5000        11
   1.5050        25
   1.5100        14
   1.5150        23
   1.5200        16
   1.5250        24
   1.5300        22
   1.5350        20
   1.5400        17
   1.5450        15
   1.5500         9
   1.5550         9
   1.5600         6
   1.5650        14
   1.5700        12
   1.5750        14
   1.5800         8
   1.5850        11
   1.5900         9
   1.5950        12
   1.6000         9
   1.6050         9
   1.6100        12
   1.6150        11
   1.6200        12
   1.6250        14
   1.6300         9
   1.6350        22
   1.6400        11
   1.6450         8
   1.6500         9
   1.6550         8
   1.6600         8
   1.6650        14
   1.6700         9
   1.6750        13
   1.6800        13
   1.6850        10
   1.6900        10
   1.6950         6
   1.7000         8
   1.7050         7
   1.7100         5
   1.7150         5
   1.7200         5
   1.7250        10
   1.7300        10
   1.7350         6
   1.7400         3
   1.7450         5
   1.7500         7
   1.7550         7
   1.7600         7
   1.7650         7
   1.7700         7
   1.7750         7
   1.7800         4
   1.7850        10
   1.7900         9
   1.7950         4
   1.8000         2
   1.8050         5
   1.8100         5
   1.8150         6
   1.8200        11
   1.8250         9
   1.8300         9
   1.8350         5
   1.8400         6
   1.8450         7
   1.8500         5
   1.8550         4
   1.8600         3
   1.8650         6
   1.8700         2
   1.8750         6
   1.8800         2
   1.8850         7
   1.8900         3
   1.8950         6
   1.9000         4
   1.9050         3
   1.9100         6
   1.9150         4
   1.9200         3
   1.9250         4
   1.9300         3
   1.9350         5
   1.9400         3
   1.9450         6
   1.9500         3
   1.9550         9
   1.9600         3
   1.9650         2
   1.9700         2
   1.9750         2
   1.9800         1
   1.9850         4
   1.9900         5
   1.9950         7
   2.0000         3
   2.0050         1
   2.0100         5
   2.0150         0
   2.0200         2
   2.0250         4
   2.0300         3
   2.0350         3
   2.0400         0
   2.0450         7
   2.0500         5
   2.0550         3
   2.0600         3
   2.0650         3
   2.0700         4
   2.0750         3
   2.0800         2
   2.0850         2
   2.0900         2
   2.0950         2
   2.1000         4
   2.1050         2
   2.1100         2
   2.1150         3
   2.1200         6
   2.1250         4
   2.1300         2
   2.1350         0
   2.1400         3
   2.1450         2
   2.1500         1
   2.1550         2
   2.1600         0
   2.1650         3
   2.1700         2
   2.1750         1
   2.1800         1
   2.1850         3
   2.1900         1
   2.1950         3
   2.2000         2
   2.2050         1
   2.2100         0
   2.2150         3
   2.2200         4
   2.2250         3
   2.2300         0
   2.2350         3
   2.2400         2
   2.2450         2
   2.2500         3
   2.2550         5
   2.2600         1
   2.2650         3
   2.2700         3
   2.2750         2
   2.2800         4
   2.2850         2
   2.2900         2
   2.2950         1
   2.3000         2
   2.3050         4
   2.3100         2
   2.3150         3
   2.3200         1
   2.3250         4
   2.3300         1
   2.3350         1
   2.3400         1
   2.3450         1
   2.3500         1
   2.3550         3
   2.3600         2
   2.3650         0
   2.3700         2
   2.3750         1
   2.3800         0
   2.3850         1
   2.3900         2
   2.3950         1
   2.4000         0
   2.4050         0
   2.4100         2
   2.4150         2
   2.4200         1
   2.4250         3
   2.4300         2
   2.4350         0
   2.4400         3
   2.4450         2
   2.4500         2
   2.4550         1
   2.4600         4
   2.4650         1
   2.4700         0
   2.4750         0
   2.4800         4
   2.4850         2
   2.4900         0
   2.4950         0
   2.5000         3